<?xml version="1.0" encoding="utf-8"?>
<!DOCTYPE pkgmetadata SYSTEM "http://www.gentoo.org/dtd/metadata.dtd">
<pkgmetadata>
	<maintainer type="person">
		<email>gentoo@houseofsuns.org</email>
		<name>Markus Walter</name>
	</maintainer>
	<longdescription>### Supported python versions[![Python 3.7](https://img.shields.io/badge/python-3.7-blue.svg)](https://www.python.org/downloads/release/python-370)[![Python 3.8](https://img.shields.io/badge/python-3.8-orange.svg)](https://www.python.org/downloads/release/python-380)[![Python 3.9](https://img.shields.io/badge/python-3.9-green.svg)](https://www.python.org/downloads/release/python-390)[![Python 3.10](https://img.shields.io/badge/python-3.10-blue.svg)](https://www.python.org/downloads/release/python-310)# cdisc-rules-engineOpen source offering of the cdisc rules engine### Quick startTo quickly get up and running with CORE, users can download the latest executable version of the engine for their operating system from here: &lt;https://github.com/cdisc-org/cdisc-rules-engine/releases&gt;Once downloaded, simply unzip the file and run the following command based on your Operating System:Windows:```.\core.exe validate -s &lt;standard&gt; -v &lt;standard_version&gt; -d path/to/datasets# ex: .\core.exe validate -s sdtmig -v 3-4 -d .\xpt\```Linux/Mac:```./core validate -s &lt;standard&gt; -v &lt;standard_version&gt; -d path/to/datasets# ex: ./core validate -s sdtmig -v 3-4 -d .\xpt\```### Code formatterThis project uses the `black` code formatter, `flake8` linter for python and `prettier` for JSON, YAML and MD.It also uses `pre-commit` to run `black`, `flake8` and `prettier` when you commit.Both dependencies are added to _requirements.txt_.**Required**Setting up `pre-commit` requires one extra step. After installing it you have to run`pre-commit install`This installs `pre-commit` in your `.git/hooks` directory.### Installing dependenciesThese steps should be run before running any tests or core commands using the non compiled version.- Create a virtual environment:  `python -m venv &lt;virtual_environment_name&gt;`- Activate the virtual environment:`./&lt;virtual_environment_name&gt;/bin/activate` -- on linux/mac &lt;/br&gt;`.\&lt;virtual_environment_name&gt;\Scripts\Activate` -- on windows- Install the requirements.`python -m pip install -r requirements.txt` # From the root directory### Running The TestsFrom the root of the project run the following command:`python -m pytest tests/unit/`### Running a validation#### From the command lineClone the repository and run `python core.py --help` to see the full list of commands.Run `python core.py validate --help` to see the list of validation options.```  -ca, --cache TEXT               Relative path to cache files containing pre                                  loaded metadata and rules  -ps, --pool-size INTEGER         Number of parallel processes for validation  -d, --data TEXT                 Path to directory containing data files  -dp, --dataset-path TEXT        Absolute path to dataset file. Can be specified multiple times.  -l, --log-level [info|debug|error|critical|disabled|warn]                                  Sets log level for engine logs, logs are                                  disabled by default  -rt, --report-template TEXT     File path of report template to use for                                  excel output  -s, --standard TEXT             CDISC standard to validate against                                  [required]  -v, --version TEXT              Standard version to validate against                                  [required]  -ct, --controlled-terminology-package TEXT                                  Controlled terminology package to validate                                  against, can provide more than one  -o, --output TEXT               Report output file destination  -of, --output-format [JSON|XLSX]                                  Output file format  -rr, --raw-report               Report in a raw format as it is generated by                                  the engine. This flag must be used only with                                  --output-format JSON.  -dv, --define-version TEXT      Define-XML version used for validation  --whodrug TEXT                  Path to directory with WHODrug dictionary                                  files  --meddra TEXT                   Path to directory with MedDRA dictionary                                  files  -r, --rules TEXT                Rule core id. ex: CORE-000001. Can be specified multiple times.  -vo, --verbose-output           Specify this option to print rules as they                                  are completed  -p, --progress [verbose_output|disabled|percents|bar]                                  Defines how to display the validation                                  progress. By default a progress bar like                                  &quot;[████████████████████████████--------]                                  78%&quot;is printed.  --help                          Show this message and exit.```##### Available log levels- `debug` - Display all logs- `info` - Display info, warnings, and error logs- `warn` - Display warnings and errors- `error` - Display only error logs- `critical` - Display critical logs##### Validate folderTo validate a folder using rules for SDTM-IG version 3.4 use the following command:`python core.py validate -s sdtmig -v 3-4 -d path/to/datasets`##### Understanding the Rules ReportThe rules report tab displays the run status of each rule selected for validationThe possible rule run statuses are:- `SUCCESS` - The rule ran and data was validated against the rule. May or may not produce results- `SKIPPED` - The rule was unable to be run. Usually due to missing required data, but could also be cause by rule execution errors.##### Additional Core Commands- update-cache - update locally stored cache data (Requires an environment variable - `CDISC_LIBRARY_API_KEY`)  `python core.py update-cache`  To obtain an api key, please follow the instructions found here: &lt;https://wiki.cdisc.org/display/LIBSUPRT/Getting+Started%3A+Access+to+CDISC+Library+API+using+API+Key+Authentication&gt;. Please note it can take up to an hour after sign up to have an api key issued- list-rules - list rules available in the cache  - list all rules:    `python core.py list-rules`  - list rules for standard:    `python core.py list-rules -s sdtmig -v 3-4`- list-rule-sets - lists all standards and versions for which rules are available:  `python core.py list-rule-sets`- test - Test authored rule given dataset in json format```  -ca, --cache TEXT               Relative path to cache files containing pre                                  loaded metadata and rules  -dp, --dataset-path TEXT        Absolute path to dataset file  -s, --standard TEXT             CDISC standard to validate against                                  [required]  -v, --version TEXT              Standard version to validate against                                  [required]  -ct, --controlled-terminology-package TEXT                                  Controlled terminology package to validate                                  against, can provide more than one  -dv, --define-version TEXT      Define-XML version used for validation  --whodrug TEXT                  Path to directory with WHODrug dictionary                                  files  --meddra TEXT                   Path to directory with MedDRA dictionary                                  files  -r, --rule TEXT                 Path to rule json file.  --help                          Show this message and exit.```EX: `python core.py test -s sdtmig -v 3-4 -dp &lt;path to dataset json file&gt; -r &lt;path to rule json file&gt; --meddra ./meddra/ --whodrug ./whodrug/`Note: JSON dataset should match the format provided by the rule editor:```{    &quot;datasets&quot;: [{      &quot;filename&quot;: &quot;cm.xpt&quot;,      &quot;label&quot;: &quot;Concomitant/Concurrent medications&quot;,      &quot;domain&quot;: &quot;CM&quot;,      &quot;variables&quot;: [        {          &quot;name&quot;: &quot;STUDYID&quot;,          &quot;label&quot;: &quot;Study Identifier&quot;,          &quot;type&quot;: &quot;Char&quot;,          &quot;length&quot;: 10        }      ],      &quot;records&quot;: {        &quot;STUDYID&quot;: [          &quot;CDISC-TEST&quot;,          &quot;CDISC-TEST&quot;,          &quot;CDISC-TEST&quot;,          &quot;CDISC-TEST&quot;        ],      }    }  ]}```- list-ct - list ct packages available in the cache```Usage: python core.py list-ct [OPTIONS]  Command to list the ct packages available in the cache.Options:  -c, --cache_path TEXT  Relative path to cache files containing pre loaded                         metadata and rules  -s, --subsets TEXT     CT package subset type. Ex: sdtmct. Multiple values                         allowed  --help                 Show this message and exit.```#### PyPI Quickstart: Validate data within pythonAn alternative to running the validation from the command line is to instead import the rules engine library in python and run rules against data directly (without needing your data to be in `.xpt` format).##### Step 0: Install the library```pip install cdisc-rules-engine```In addition to installing the library, you'll also want to download the rules cache (found in the `resources/cache` folder of this repository) and store them somewhere in your project.##### Step 1: Load the RulesThe rules can be loaded into an in-memory cache by doing the following:```pythonimport osimport pathlibfrom multiprocessing.managers import SyncManagerfrom cdisc_rules_engine.services.cache import InMemoryCacheServiceclass CacheManager(SyncManager):    pass# If you're working from a terminal you may need to# use SyncManager directly rather than define CacheManagerCacheManager.register(&quot;InMemoryCacheService&quot;, InMemoryCacheService)def load_rules_cache(path_to_rules_cache):  cache_path = pathlib.Path(path_to_rules_cache)  manager = CacheManager()  manager.start()  cache = manager.InMemoryCacheService()  files = next(os.walk(cache_path), (None, None, []))[2]  for fname in files:      with open(cache_path / fname, &quot;rb&quot;) as f:          cache.add_all(pickle.load(f))  return cache```Rules in this cache can be accessed by standard and version using the `get_rules_cache_key` function.```pythonfrom cdisc_rules_engine.utilities.utils import get_rules_cache_keycache = load_rules_cache()# Note that the standard version is separated by a dash, not a periodcache_key_prefix = get_rules_cache_key(&quot;sdtmig&quot;, &quot;3-4&quot;)rules = cache.get_all_by_prefix(cache_key_prefix)````rules` will now be a list of dictionaries the following keys- `core_id`  - e.g. &quot;CORE-000252&quot;- `domains`  - e.g. `{'Include': ['DM'], 'Exclude': []}` or `{'Include': ['ALL']}`- `author`- `reference`- `sensitivity`- `executability`- `description`- `authorities`- `standards`- `classes`- `rule_type`- `conditions`- `actions`- `datasets`- `output_variables`##### Step 2: Prepare your dataIn order to pass your data through the rules engine, it must be a pandas dataframe of an SDTM dataset. For example:```&gt;&gt;&gt; dataSTUDYID DOMAIN USUBJID  AESEQ AESER    AETERM    ... AESDTH AESLIFE AESHOSP0          AE      001     0     Y     Headache  ...     N       N       N[1 rows x 19 columns]```Before passing this into the rules engine, we need to wrap it in a DatasetVariable.```pythonfrom cdisc_rules_engine.models.dataset_variable import DatasetVariabledataset = DatasetVariable(data)```##### Step 3: Run the (relevant) rulesNext, we need to actually run the rules. We can select which rules we want to run based on the domain of the data we're checking and the `&quot;Include&quot;` and `&quot;Exclude&quot;` domains of the rule.```python# Get the rules for the domain AE# (Note: we're ignoring ALL domain rules here)ae_rules = [  rule for rule in rules  if &quot;AE&quot; in rule[&quot;domains&quot;].get(&quot;Include&quot;, [])]```There's one last thing we need before we can actually run the rule, and that's a `COREActions` object. This object will handle generating error messages should the rule fail.To instantiate a `COREActions` object, we need to pass in the following:- `results`: An array to which errors will be appended- `variable`: Our DatasetVariable- `domain`: e.g. &quot;AE&quot;- `rule`: Our rule```pythonfrom cdisc_rules_engine.models.actions import COREActionsrule = ae_rules[0]results = []core_actions = COREActions(  results,  variable=dataset,  domain=&quot;AE&quot;,  rule=rule)```All that's left is to run the rule!```pythonfrom business_rules.engine import runwas_triggered = run(  rule=rule,  defined_variables=dataset_variable,  defined_actions=core_actions,)```##### Step 5: Interpret the resultsThe return value of run will tell us if the rule was triggered.- A `False` value means that there were no errors- A `True` value means that there were errorsIf there were errors, they will have been appended to the results array passed into your `COREActions` instance. Here's an example error:```python{  'executionStatus': 'success',  'domain': 'AE',  'variables': ['AESLIFE'],  'message': 'AESLIFE is completed, but not equal to &quot;N&quot; or &quot;Y&quot;',  'errors': [    {'value': {'AESLIFE': 'Maybe'}, 'row': 1}  ]}```### Creating an executable version**Linux**`pyinstaller core.py --add-data=venv/lib/python3.9/site-packages/xmlschema/schemas:xmlschema/schemas --add-data=resources/cache:resources/cache --add-data=resources/templates:resources/templates`**Windows**`pyinstaller core.py --add-data=&quot;.venv/Lib/site-packages/xmlschema/schemas;xmlschema/schemas&quot; --add-data=&quot;resources/cache;resources/cache&quot; --add-data=&quot;resources/templates;resources/templates&quot;`_Note .venv should be replaced with path to python installation or virtual environment_This will create an executable version in the `dist` folder. The version does not require having Python installed andcan be launched by running `core` script with all necessary CLI arguments.### Creating .whl fileAll non-python files should be listed in `MANIFEST.in` to be included in the distribution.Files must be in python package.**Unix/MacOS**`python3 -m pip install --upgrade build``python3 -m build`To install from dist folder`pip3 install {path_to_file}/cdisc_rules_engine-{version}-py3-none-any.whl`To upload built distributive to pypi`python3 -m pip install --upgrade twine``python3 -m twine upload --repository {repository_name} dist/*`**Windows(Untested)**`py -m pip install --upgrade build``py -m build`To install from dist folder`pip install {path_to_file}/cdisc_rules_engine-{version}-py3-none-any.whl`To upload built distributive to pypi`py -m pip install --upgrade twine``py -m twine upload --repository {repository_name} dist/*`</longdescription>
</pkgmetadata>